Wavelength,Count
350,-2.75
351,-0.21
352,0.48
353,-0.93
354,3.42
355,-0.25
356,3.01
357,-1.13
358,-0.99
359,4.12
360,-0.1
361,3.1
362,5.74
363,6.07
364,6.11
365,3.73
366,3.3
367,6.23
368,3.53
369,0.8
370,1.7
371,2.6
372,3.03
373,2.31
374,1.35
375,5.89
376,2.45
377,0.96
378,1.43
379,4.08
380,-0.69
381,4.07
382,5.06
383,4.27
384,3.33
385,3.94
386,3.96
387,1.6
388,0.38
389,5.07
390,1.73
391,0.41
392,2.12
393,4.98
394,1.33
395,3.15
396,1.6
397,7.08
398,4.34
399,1.93
400,2.74
401,2.02
402,1.96
403,4.21
404,4.14
405,7.74
406,4.5
407,3.76
408,6.46
409,6.41
410,4.39
411,2.85
412,4.49
413,3.96
414,2.27
415,1.26
416,1.45
417,4.7
418,4.28
419,4.05
420,3.93
421,3.49
422,2.11
423,4.94
424,2.22
425,5.96
426,6.05
427,6.51
428,7.21
429,2.44
430,4.82
431,3.97
432,8.83
433,3.73
434,4.16
435,3.63
436,1.8
437,2.96
438,4.13
439,4.45
440,2.43
441,4.25
442,4.6
443,2.68
444,6.78
445,3.25
446,2.62
447,0.95
448,5.23
449,2.82
450,3.32
451,2.14
452,3.49
453,5.44
454,3.69
455,4.45
456,4.45
457,3.47
458,8.07
459,5.75
460,6.14
461,0.3
462,4.05
463,4.95
464,4.09
465,2.06
466,2.71
467,4.61
468,3.86
469,6.26
470,4.4
471,5.63
472,6.05
473,2.78
474,6.43
475,7.26
476,5.03
477,1.95
478,3.58
479,5.54
480,6
481,8.39
482,6.73
483,4.15
484,5.1
485,4.56
486,5.84
487,7.03
488,8.85
489,9.61
490,7.75
491,9.29
492,7.54
493,8.76
494,9.17
495,10.95
496,7.24
497,7.61
498,10.08
499,7.45
500,9.69
501,8.3
502,10.21
503,13.57
504,7.57
505,11.15
506,10.17
507,9.88
508,12.33
509,10.8
510,12.61
511,10.11
512,15.87
513,13.48
514,11.6
515,13.08
516,13.18
517,14.28
518,14.98
519,13.06
520,13.8
521,15.95
522,23.06
523,14.76
524,13.6
525,17.03
526,16.85
527,15.56
528,18.02
529,17.56
530,17.76
531,19.78
532,22.79
533,25.22
534,21.73
535,22.47
536,19.84
537,19.08
538,23.92
539,21.14
540,23.19
541,26.51
542,22.15
543,23.08
544,23.14
545,23.84
546,24.96
547,24.52
548,23.74
549,31.8
550,27.09
551,33.03
552,30.49
553,31.57
554,30.12
555,30.9
556,31.49
557,33.56
558,35.37
559,29.54
560,34.06
561,35.18
562,38.05
563,36.58
564,34.1
565,38.06
566,33.49
567,32.04
568,35.89
569,41.83
570,38.02
571,40.63
572,36.99
573,41.3
574,33.96
575,42.74
576,41.23
577,42.81
578,40.17
579,42.99
580,45.19
581,43.28
582,46.88
583,45.31
584,40.1
585,52.36
586,47.55
587,48.18
588,45.24
589,50.9
590,54.06
591,49.34
592,49.05
593,54.76
594,51.72
595,55.52
596,60.54
597,52.07
598,53.9
599,55.75
600,56.53
601,57.34
602,59.02
603,56.9
604,63.15
605,59.46
606,62.7
607,61.58
608,63.26
609,63.95
610,61.29
611,69.05
612,64.8
613,74.43
614,66.39
615,72.35
616,70.86
617,63.78
618,71.28
619,67.2
620,75.89
621,74.26
622,78.29
623,73.31
624,69.71
625,76.37
626,75.36
627,78.84
628,75.56
629,76.27
630,81.84
631,78.15
632,77.62
633,81.1
634,85.52
635,77.7
636,82.2
637,84.09
638,81.74
639,89.71
640,88.37
641,89.93
642,85.5
643,89.01
644,91.08
645,94.31
646,89.12
647,86.88
648,86.29
649,95.28
650,93.42
651,91.87
652,93.35
653,99.13
654,94.99
655,95.76
656,90.12
657,96.14
658,96.29
659,92.95
660,102.24
661,103.17
662,97.97
663,101.58
664,103.26
665,102.66
666,100.94
667,98.04
668,96.86
669,102.57
670,102.98
671,104.21
672,104.06
673,102.15
674,107.59
675,107.5
676,107.23
677,110.39
678,111.51
679,105.13
680,108.74
681,110.48
682,103.78
683,108.43
684,107.63
685,111.3
686,108.6
687,108.66
688,112.59
689,106.16
690,114.04
691,114.05
692,108.92
693,114.12
694,113.99
695,118.02
696,120.97
697,113.96
698,119.56
699,120.06
700,118.51
701,112.95
702,117.12
703,117.17
704,120.25
705,118.67
706,116.75
707,113.92
708,119.39
709,117.48
710,121.04
711,118.51
712,124.66
713,117.57
714,124.8
715,120.55
716,127.66
717,122.39
718,123.42
719,123.33
720,123.66
721,122.64
722,124.53
723,123.23
724,122
725,131.75
726,121.21
727,125.82
728,126.93
729,124.44
730,126.01
731,128.03
732,127.32
733,123.15
734,131.3
735,133.03
736,129.69
737,121.29
738,127.88
739,125.04
740,126.92
741,126.87
742,129.5
743,121.62
744,133.37
745,130.49
746,130.83
747,132.51
748,131.57
749,132.95
750,127.54
751,128.84
752,131.33
753,130.06
754,130.56
755,131.07
756,128.2
757,131.91
758,123.82
759,127.26
760,137.2
761,126.28
762,126.64
763,128.59
764,122.84
765,121.06
766,126.78
767,126.47
768,123.65
769,124.39
770,125.76
771,120.43
772,119.89
773,123.09
774,124.52
775,123.81
776,116.73
777,124.29
778,121.23
779,123.49
780,121.55
781,123.82
782,121.86
783,122.19
784,121.17
785,126.85
786,123.36
787,128.36
788,134.83
789,135.38
790,132.45
791,141.04
792,130.35
793,133.96
794,139.48
795,132.48
796,138.83
797,138.21
798,136.38
799,147.8
800,142.23
801,132.98
802,139.98
803,140.27
804,132.81
805,142.74
806,137.54
807,137.01
808,138.09
809,136
810,136.36
811,131.25
812,137.05
813,142.27
814,129.46
815,130.88
816,136.89
817,133.8
818,137.7
819,132.81
820,133.19
821,132.04
822,143.07
823,135.01
824,132.23
825,132.88
826,137.77
827,136.13
828,127.01
829,132.53
830,130.03
831,131.58
832,126.41
833,126.92
834,131.3
835,134.8
836,132.35
837,128.09
838,124.57
839,129.02
840,130.16
841,123.26
842,132.14
843,126.59
844,129.72
845,123.84
846,126.4
847,119.31
848,122.85
849,120.32
850,124.65
851,122.72
852,118.95
853,123.51
854,132.3
855,120.48
856,108.94
857,115.38
858,116.24
859,115.03
860,116.83
861,115.58
862,110.63
863,117
864,104.84
865,110.42
866,114.56
867,114.91
868,116.84
869,109.46
870,116.86
871,108.4
872,112.07
873,111.94
874,106.93
875,108.29
876,110.06
877,103.12
878,108.27
879,106.45
880,110.87
881,102.55
882,102.74
883,96.33
884,95.23
885,98.21
886,95.88
887,93.59
888,97.56
889,95.68
890,96.01
891,92.78
892,90.31
893,92.26
894,85.82
895,95.92
896,89.94
897,96.31
898,91.6
899,91.59
900,95.72
901,96.89
902,92.55
903,99.97
904,97.59
905,98.04
906,101.11
907,98.59
908,99.53
909,95.88
910,102.19
911,105.3
912,100.38
913,98.81
914,96.84
915,101.97
916,95.12
917,101.08
918,98.4
919,96.91
920,91.99
921,87.76
922,93.3
923,89.45
924,89.07
925,87.97
926,86.48
927,84.1
928,83.01
929,79.63
930,83.73
931,77.32
932,78.93
933,71.19
934,78.61
935,74.62
936,75.3
937,75.89
938,69.08
939,71.38
940,65.59
941,68.3
942,64.99
943,64.58
944,61.47
945,63.05
946,61.75
947,64.13
948,59.71
949,63.26
950,51.17
951,57.01
952,57.26
953,49.52
954,51.63
955,52.45
956,51.51
957,54.73
958,56.48
959,48.16
960,46.66
961,51.9
962,47.23
963,47.06
964,41.7
965,43.93
966,43.61
967,40.93
968,44.27
969,39.53
970,39.76
971,35.45
972,37.67
973,36.31
974,36.58
975,34.6
976,34.64
977,38.2
978,31.71
979,37.17
980,33.64
981,35.31
982,30.35
983,27.91
984,33.8
985,25.07
986,30.64
987,28.94
988,27.34
989,26.69
990,30.56
991,26.8
992,29.14
993,23.98
994,26.72
995,24.25
996,25.08
997,22.8
998,21.39
999,21.95
1000,9.59